ENVI
description = {
  Resampled Spectral Library [Wed Nov 12 09:35:49 2008]}
samples = 260
lines   = 1
bands   = 1
header offset = 0
file type = ENVI Spectral Library
data type = 4
interleave = bsq
sensor type = Unknown
byte order = 0
wavelength units = Nanometers
band names = {
 Resampled (Scaled Avg. of 4 independent 62231 Spectra:Scaled_avg62231_fullres.sli)}
spectra names = {
 Scaled Avg. of 4 independent 62231 Spectra}
wavelength = {
  404.200000,  414.200000,  424.190000,  434.190000,  444.180000,  454.180000,
  464.170000,  474.170000,  484.160000,  494.160000,  504.150000,  514.150000,
  524.140000,  534.140000,  544.130000,  554.130000,  564.120000,  574.120000,
  584.110000,  594.110000,  604.100000,  614.100000,  624.090000,  634.090000,
  644.080000,  654.080000,  664.070000,  674.070000,  684.060000,  694.060000,
  704.050000,  714.050000,  724.040000,  734.040000,  744.030000,  754.030000,
  764.020000,  774.020000,  784.010000,  794.010000,  804.000000,  814.000000,
  823.990000,  833.990000,  843.980000,  853.980000,  863.970000,  873.970000,
  883.960000,  893.960000,  903.950000,  913.950000,  923.940000,  933.940000,
  943.930000,  953.930000,  963.920000,  973.920000,  983.910000,  993.910000,
 1003.900000, 1013.900000, 1023.890000, 1033.890000, 1043.880000, 1053.880000,
 1063.870000, 1073.870000, 1083.860000, 1093.860000, 1103.850000, 1113.850000,
 1123.840000, 1133.840000, 1143.830000, 1153.830000, 1163.820000, 1173.820000,
 1183.810000, 1193.810000, 1203.800000, 1213.800000, 1223.790000, 1233.790000,
 1243.780000, 1253.780000, 1263.770000, 1273.770000, 1283.760000, 1293.760000,
 1303.750000, 1313.750000, 1323.740000, 1333.740000, 1343.730000, 1353.730000,
 1363.720000, 1373.720000, 1383.710000, 1393.710000, 1403.700000, 1413.700000,
 1423.690000, 1433.690000, 1443.680000, 1453.680000, 1463.670000, 1473.670000,
 1483.660000, 1493.660000, 1503.650000, 1513.650000, 1523.640000, 1533.640000,
 1543.630000, 1553.630000, 1563.620000, 1573.620000, 1583.610000, 1593.610000,
 1603.600000, 1613.600000, 1623.590000, 1633.590000, 1643.580000, 1653.580000,
 1663.570000, 1673.570000, 1683.560000, 1693.560000, 1703.550000, 1713.550000,
 1723.540000, 1733.540000, 1743.530000, 1753.530000, 1763.520000, 1773.520000,
 1783.510000, 1793.510000, 1803.500000, 1813.500000, 1823.490000, 1833.490000,
 1843.480000, 1853.480000, 1863.470000, 1873.470000, 1883.460000, 1893.460000,
 1903.450000, 1913.450000, 1923.440000, 1933.440000, 1943.430000, 1953.430000,
 1963.420000, 1973.420000, 1983.410000, 1993.410000, 2003.400000, 2013.400000,
 2023.390000, 2033.390000, 2043.380000, 2053.380000, 2063.370000, 2073.370000,
 2083.360000, 2093.360000, 2103.350000, 2113.350000, 2123.340000, 2133.340000,
 2143.330000, 2153.330000, 2163.320000, 2173.320000, 2183.310000, 2193.310000,
 2203.300000, 2213.300000, 2223.290000, 2233.290000, 2243.280000, 2253.280000,
 2263.270000, 2273.270000, 2283.260000, 2293.260000, 2303.250000, 2313.250000,
 2323.240000, 2333.240000, 2343.230000, 2353.230000, 2363.220000, 2373.220000,
 2383.210000, 2393.210000, 2403.200000, 2413.200000, 2423.190000, 2433.190000,
 2443.180000, 2453.180000, 2463.170000, 2473.170000, 2483.160000, 2493.160000,
 2503.150000, 2513.150000, 2523.140000, 2533.140000, 2543.130000, 2553.130000,
 2563.120000, 2573.120000, 2583.110000, 2593.110000, 2603.100000, 2613.100000,
 2623.090000, 2633.090000, 2643.080000, 2653.080000, 2663.070000, 2673.070000,
 2683.060000, 2693.060000, 2703.050000, 2713.050000, 2723.040000, 2733.040000,
 2743.030000, 2753.030000, 2763.020000, 2773.020000, 2783.010000, 2793.010000,
 2803.000000, 2813.000000, 2822.990000, 2832.990000, 2842.980000, 2852.980000,
 2862.970000, 2872.970000, 2882.960000, 2892.960000, 2902.950000, 2912.950000,
 2922.940000, 2932.940000, 2942.930000, 2952.930000, 2962.920000, 2972.920000,
 2982.910000, 2992.910000}
fwhm = {
 13.760000, 13.740000, 13.730000, 13.710000, 13.690000, 13.680000, 13.660000,
 13.650000, 13.630000, 13.610000, 13.600000, 13.580000, 13.570000, 13.550000,
 13.540000, 13.520000, 13.510000, 13.490000, 13.470000, 13.460000, 13.440000,
 13.430000, 13.410000, 13.400000, 13.390000, 13.370000, 13.360000, 13.340000,
 13.330000, 13.310000, 13.300000, 13.280000, 13.270000, 13.250000, 13.240000,
 13.230000, 13.210000, 13.200000, 13.180000, 13.170000, 13.160000, 13.140000,
 13.130000, 13.120000, 13.100000, 13.090000, 13.080000, 13.060000, 13.050000,
 13.040000, 13.020000, 13.010000, 13.000000, 12.980000, 12.970000, 12.960000,
 12.940000, 12.930000, 12.920000, 12.910000, 12.890000, 12.880000, 12.870000,
 12.860000, 12.840000, 12.830000, 12.820000, 12.810000, 12.800000, 12.780000,
 12.770000, 12.760000, 12.750000, 12.740000, 12.720000, 12.710000, 12.700000,
 12.690000, 12.680000, 12.670000, 12.660000, 12.640000, 12.630000, 12.620000,
 12.610000, 12.600000, 12.590000, 12.580000, 12.570000, 12.560000, 12.550000,
 12.530000, 12.520000, 12.510000, 12.500000, 12.490000, 12.480000, 12.470000,
 12.460000, 12.450000, 12.440000, 12.430000, 12.420000, 12.410000, 12.400000,
 12.390000, 12.380000, 12.370000, 12.360000, 12.350000, 12.340000, 12.330000,
 12.330000, 12.320000, 12.310000, 12.300000, 12.290000, 12.280000, 12.270000,
 12.260000, 12.250000, 12.240000, 12.240000, 12.230000, 12.220000, 12.210000,
 12.200000, 12.190000, 12.180000, 12.180000, 12.170000, 12.160000, 12.150000,
 12.140000, 12.140000, 12.130000, 12.120000, 12.110000, 12.100000, 12.100000,
 12.090000, 12.080000, 12.070000, 12.070000, 12.060000, 12.050000, 12.040000,
 12.040000, 12.030000, 12.020000, 12.020000, 12.010000, 12.000000, 12.000000,
 11.990000, 11.980000, 11.980000, 11.970000, 11.960000, 11.960000, 11.950000,
 11.940000, 11.940000, 11.930000, 11.930000, 11.920000, 11.910000, 11.910000,
 11.900000, 11.900000, 11.890000, 11.880000, 11.880000, 11.870000, 11.870000,
 11.860000, 11.860000, 11.850000, 11.850000, 11.840000, 11.840000, 11.830000,
 11.830000, 11.820000, 11.820000, 11.810000, 11.810000, 11.800000, 11.800000,
 11.790000, 11.790000, 11.780000, 11.780000, 11.770000, 11.770000, 11.770000,
 11.760000, 11.760000, 11.750000, 11.750000, 11.750000, 11.740000, 11.740000,
 11.740000, 11.730000, 11.730000, 11.720000, 11.720000, 11.720000, 11.710000,
 11.710000, 11.710000, 11.700000, 11.700000, 11.700000, 11.700000, 11.690000,
 11.690000, 11.690000, 11.680000, 11.680000, 11.680000, 11.680000, 11.670000,
 11.670000, 11.670000, 11.670000, 11.670000, 11.660000, 11.660000, 11.660000,
 11.660000, 11.660000, 11.650000, 11.650000, 11.650000, 11.650000, 11.650000,
 11.650000, 11.640000, 11.640000, 11.640000, 11.640000, 11.640000, 11.640000,
 11.640000, 11.640000, 11.630000, 11.630000, 11.630000, 11.630000, 11.630000,
 11.630000, 11.630000, 11.630000, 11.630000, 11.630000, 11.630000, 11.630000,
 11.630000}
